{
	"resourceType": "Bundle",
	"id": "acraim",
	"type": "collection",
	"entry": [
		{
			"resourceType":"DiagnosticReport",
			"id": "58427",
		    "status":"final",
		    "code":{
				"system": "http:loinc.org",
				"code": "36643-5",
		        "text": "XR Chest 2 Views"
		    },
		    "subject":{
		       	"display": "Joe Siim",
		       	"reference": "http://hackathon.siim.org/fhir-overview/fhir/Patient/siimjoe"
		    },
		    "performer":{
		       	"display": "Hospital Department",
				"reference": "http://hackathon.siim.org/fhir-overview/fhir/Organization/siim"
		    },
		    "result":{
				"reference": "Observation/ob1",
				"display": "Pneumothrax Case"
			},
			"imagingStudy":{
				"endpointAddress": "https://pacs.org/wado-rs",
		       	"identifier": "1.2.752.24.7.19011385.514521"
			},
			"conclusion":"This is a sample report that contains imaging observations as well as annotations formed with AIM"
		},
		{
			"resourceType": "Observation",
		    "id": "ob1",
			"status": "final",
			"subject":{
		        "reference": "http://hackathon.siim.org/fhir-overview/fhir/Patient/siimjoe"
		    },
		    "code": {
		    	"system": "http://radelement.org",
		        "code":"RDES44",
		        "display":"Pneumothorax"
			},
			"hasMember": [
				{
				"reference": "Observation/ob2"
				},
				{
				"reference": "Observation/ob3"
				},
				{
				"reference": "Observation/ob4"
				},
				{
				"reference": "Observation/ob5"
				},		
				{
				"reference": "Observation/ob6"
				}
			],
			"derivedFrom" :{
				"imagingStudy":{
					"endpointAddress": "https://pacs.org/wado-rs",
		        	"identifier": "1.2.752.24.7.19011385.514521"	
				}
			}
		},
		{
			"resourceType": "Observation",
		    "id": "ob2",
			"status": "final",
			"subject":{
		        "reference": "http://hackathon.siim.org/fhir-overview/fhir/Patient/siimjoe"
		    },
		    "code": {
		    	"system": "http://radelement.org",
		        "code": "RDE421",
		        "display":"Pneumothorax detection",
		        "value": {
		            "value": "Present",
		            "code": "Enumerated",
		            "system": "http://radelement.org"
				}
			}
		},
		{
			"resourceType": "Observation",
		    "id": "ob3",
			"status": "final",
			"subject":{
		        "reference": "http://hackathon.siim.org/fhir-overview/fhir/Patient/siimjoe"
		    },
			"code": {
		    	"system": "http://radelement.org",
		        "code": "RDE422",
		        "display":"Pleural separation in mm",
					"value": {
		            	"value": 5.7,
		                "code": "Float",
		                "system": "http://radelement.org"
					}
			},
			"basedOn": {
				"reference": "imageReference/ir1"
			}
		},
		{
			"resourceType": "ImageReference",
		    "id": "ir1",
			"subject":{
		        "reference": "http://hackathon.siim.org/fhir-overview/fhir/Patient/siimjoe"
		    },
			"studyUid": "1.2.752.24.7.19011385.514521",
			"seriesUid": "1.2.840.113704.1.111.1804.1218052058.19",
			"instance": {
				"uid": "1.2.840.113704.1.111.3788.1218052187.1565",
				"observationUid": "2.25.36053766954864919670063347705642739563",
				"imageRegion": {
					"regionType": "POLYLINE",
					"coordinateList": {
						"2dCoordinateList" : [
		            	{
		                "x": 109.20775623268698,
		                "coordinateIndex": 0,
		                "y": 276.56509695290856
		                },
		                {
		                "x": 144.66481994459835,
		                "coordinateIndex": 1,
		                "y": 287.9113573407202
		                }
						]
					}
				}
			}
		},
		{
			"resourceType": "Observation",
		    "id": "ob4",
			"status": "final",
			"subject":{
		        "reference": "http://hackathon.siim.org/fhir-overview/fhir/Patient/siimjoe"
		    },
			"code": {
		    	"system": "http://radelement.org",
		    	"code":"RDE423",
		        "display":"Pneumothorax side",
				"value": {
		        	"value": "Left",
		            "code": "Enumerated",
		            "system": "http://radelement.org"
				}
			}
		},
		{
			"resourceType": "Observation",
		    "id": "ob5",
			"status": "final",
			"subject":{
		        "reference": "http://hackathon.siim.org/fhir-overview/fhir/Patient/siimjoe"
		    },
			"code": {
		    	"system": "http://radelement.org",
		        "code":"RDE424",
		        "display":"Pneumothorax size",
				"value": {
		        	"value": "Medium",
		            "code": "Enumerated",
		            "system": "http://radelement.org"
				}
			},
			"basedOn": {
				"reference": "imageReference/ir2"
			}
		},
		{
			"resourceType": "ImageReference",
		    "id": "ir2",
			"subject":{
		        "reference": "http://hackathon.siim.org/fhir-overview/fhir/Patient/siimjoe"
		    },
			"studyUid": "1.2.752.24.7.19011385.514521",
			"seriesUid": "1.2.840.113704.1.111.1804.1218052058.19",
			"instance": {
				"uid": "1.2.840.113704.1.111.3788.1218052187.1565",
				"observationUid": "2.25.36053766954864919670063347705642739564",
				"imageRegion": {
					"regionType": "MULTILINE",
					"coordinateList": {
						"2dCoordinateList" : [
						{
		                "line":{
		                	"opacity": "",
		                    "style": "",
		                   	"thickness": "",
		                    "identifier": 1,
		                    "color": "",
		                    "coordinates":[
		                    	{
		                        "x": 109.20775623268698,
		                        "coordinateIndex": 0,
		                        "y": 276.56509695290856
		                        },
		                        {
		                        "x": 144.66481994459835,
		                        "coordinateIndex": 1,
		                        "y": 287.9113573407202
		                        }
							]
						}
						},
						{
		                "line":{
		                	"opacity": "",
		                    "style": "",
		                   	"thickness": "",
		                    "identifier": 2,
		                    "color": "",
		                    "coordinates":[
		                    	{
		                        "x": 101.024353,
		                        "coordinateIndex": 0,
		                        "y": 233.56509695290856
		                        },
		                        {
		                        "x": 134.59835,
		                        "coordinateIndex": 1,
		                        "y": 234.99083407202
		                        }
							]
						}
						}
						]
					}
				}
			}
		},
		{
			"resourceType": "Observation",
		    "id": "ob6",
			"status": "final",
			"subject":{
		        "reference": "http://hackathon.siim.org/fhir-overview/fhir/Patient/siimjoe"
		    },
			"code": {
		    	"system": "http://radelement.org",
		        "code":"RDE425",
		        "display":"Presence of chest tube",
				"value": {
		        	"value": "Absent",
		            "code": "Enumerated",
		            "system": "http://radelement.org"
				}
			}
		}		
	]
}